Wavelength,vp19
451.996002,109.95
454.221985,109.95
456.447998,109.95
458.674011,109.95
460.899994,109.95
463.126007,109.95
465.35199,109.95
467.578003,109.95
469.803986,109.95
472.029999,109.95
474.256012,109.95
476.481995,109.95
478.708008,109.95
480.93399,109.95
483.160004,109.95
485.385986,109.95
487.612,109.95
489.838013,109.95
492.063995,109.95
494.290009,109.95
496.515991,109.95
498.742004,109.95
500.967987,109.95
503.194,109.95
505.420013,109.95
507.645996,109.95
509.872009,109.95
512.098022,109.95
514.323975,109.95
516.549988,109.95
518.776001,109.95
521.002014,109.95
523.228027,109.95
525.453979,109.95
527.679993,109.95
529.906006,109.95
532.132019,109.95
534.357971,109.95
536.583984,109.95
538.809998,109.95
541.036011,109.95
543.260986,109.95
545.487,109.95
547.713013,109.95
549.939026,109.95
552.164978,109.95
554.390991,109.95
556.617004,109.95
558.843018,109.95
561.06897,109.95
563.294983,109.95
565.520996,109.95
567.747009,109.95
569.973022,109.95
572.198975,109.95
574.424988,109.95
576.651001,109.95
578.877014,109.95
581.103027,109.95
583.328979,109.95
585.554993,109.95
587.781006,109.95
590.007019,109.95
592.232971,109.95
594.458984,109.95
596.684998,109.95
598.911011,109.95
601.137024,109.95
603.362976,109.95
605.588989,109.95
607.815002,109.95
610.041016,109.95
612.267029,109.95
614.492981,109.95
616.718994,109.95
618.945007,109.95
621.171021,109.95
623.396973,109.95
625.622986,109.95
627.848999,109.95
630.075012,109.95
632.301025,109.95
634.526978,109.95
636.752991,109.95
638.979004,109.95
641.205017,109.95
643.43103,109.95
645.656982,109.95
647.882996,109.95
650.109009,109.95
652.335022,109.95
654.560974,109.95
656.786987,109.95
659.013,109.95
661.239014,109.95
663.465027,109.95
665.690002,109.95
667.916016,109.95
670.142029,109.95
672.367981,109.95
674.593994,109.95
676.820007,109.95
679.046021,109.95
681.271973,109.95
683.497986,109.95
685.723999,109.95
687.950012,109.95
690.176025,109.95
692.401978,109.95
694.627991,109.95
696.854004,109.95
699.080017,109.95
701.30603,109.95
703.531982,109.95
705.757996,109.95
707.984009,109.95
710.210022,109.95
712.435974,109.95
714.661987,109.95
716.888,109.95
719.114014,109.95
721.340027,109.95
723.565979,109.95
725.791992,109.95
728.018005,109.95
730.244019,109.95
732.469971,109.95
734.695984,109.95
736.921997,109.95
739.14801,109.95
741.374023,109.95
743.599976,109.95
745.825989,109.95
748.052002,109.95
750.278015,109.95
752.504028,109.95
754.72998,109.95
756.955994,109.95
759.182007,109.95
761.40802,109.95
763.633972,109.95
765.859985,109.95
768.085999,109.95
770.312012,109.95
772.538025,109.95
774.763977,109.95
776.989014,109.95
779.216003,109.95
781.440979,109.95
783.666992,109.95
785.893005,109.95
788.119019,109.95
790.344971,109.95
792.570984,109.95
794.796997,109.95
797.02301,109.95
799.249023,109.95
801.474976,109.95
803.700989,109.95
805.927002,109.95
808.153015,109.95
810.379028,109.95
812.60498,109.95
814.830994,109.95
817.057007,109.95
819.28302,109.95
821.508972,109.95
823.734985,109.95
825.960999,109.95
828.187012,109.95
830.413025,109.95
832.638977,109.95
834.86499,109.95
837.091003,109.95
839.317017,109.95
841.54303,109.95
843.768982,109.95
845.994995,109.95
848.221008,109.95
850.447021,109.95
852.672974,109.95
854.898987,109.95
857.125,109.95
859.351013,109.95
861.577026,109.95
863.802979,109.95
866.028992,109.95
868.255005,109.95
870.481018,109.95
872.70697,109.95
874.932983,109.95
877.158997,109.95
879.38501,109.95
881.611023,109.95
883.836975,109.95
886.062988,109.95
888.288025,109.95
890.513977,109.95
892.73999,109.95
894.966003,109.95
897.192017,109.95
899.41803,109.95
957.5,138.71
967.072998,138.71
976.64502,138.71
986.218018,138.71
995.789978,138.71
1005.359985,138.71
1014.940002,138.71
1024.51001,138.71
1034.079956,138.71
1043.650024,138.71
1053.22998,138.71
1062.800049,138.71
1072.369995,138.71
1081.939941,138.71
1091.52002,138.71
1101.089966,138.71
1110.660034,138.71
1120.22998,138.71
1129.810059,138.71
1139.380005,138.71
1148.949951,138.71
1158.52002,138.71
1168.099976,138.71
1177.670044,138.71
1187.23999,138.71
1196.810059,138.71
1206.390015,138.71
1215.959961,138.71
1225.530029,138.71
1235.099976,138.71
1244.680054,138.71
1254.25,138.71
1263.819946,138.71
1273.390015,138.71
1282.969971,138.71
1292.540039,138.71
1302.109985,138.71
1311.680054,138.71
1321.26001,138.71
1330.829956,138.71
1436.119995,138.71
1445.699951,138.71
1455.27002,138.71
1464.839966,138.71
1474.410034,138.71
1483.98999,138.71
1493.560059,138.71
1503.130005,138.71
1512.699951,138.71
1522.280029,138.71
1531.849976,138.71
1541.420044,138.71
1550.98999,138.71
1560.569946,138.71
1570.140015,138.71
1579.709961,138.71
1589.280029,138.71
1598.859985,138.71
1608.430054,138.71
1618.0,138.71
1627.569946,138.71
1637.150024,138.71
1646.719971,138.71
1656.290039,138.71
1665.859985,138.71
1675.439941,138.71
1685.01001,138.71
1694.579956,138.71
1704.150024,138.71
1713.72998,138.71
1723.300049,138.71
1732.869995,138.71
1742.439941,138.71
1752.02002,138.71
1761.589966,138.71
1771.160034,138.71
1981.76001,138.71
1991.329956,138.71
2000.900024,138.71
2010.469971,138.71
2020.050049,138.71
2029.619995,138.71
2039.189941,138.71
2048.76001,138.71
2058.340088,138.71
2067.909912,138.71
2077.47998,138.71
2087.050049,138.71
2096.629883,138.71
2106.199951,138.71
2115.77002,138.71
2125.340088,138.71
2134.919922,138.71
2144.48999,138.71
2154.060059,138.71
2163.629883,138.71
2173.209961,138.71
2182.780029,138.71
2192.350098,138.71
2201.919922,138.71
2211.5,138.71
2221.070068,138.71
2230.639893,138.71
2240.209961,138.71
2249.790039,138.71
2259.360107,138.71
2268.929932,138.71
2278.5,138.71
2288.080078,138.71
2297.649902,138.71
2307.219971,138.71
2316.790039,138.71
